#	IRAC_2	2	(# IRAC Transmission 2 : 2004-08-09)
   37040.000 	     0.000
   37070.000 	     0.000398
   37090.000 	     0.000344
   37120.000 	     0.000360
   37150.000 	     0.000370
   37170.000 	     0.000280
   37200.000 	     0.000288
   37230.000 	     0.000400
   37250.000 	     0.000452
   37280.000 	     0.000499
   37310.000 	     0.000555
   37330.000 	     0.000593
   37360.000 	     0.000655
   37390.000 	     0.000676
   37410.000 	     0.000580
   37440.000 	     0.000506
   37470.000 	     0.000511
   37490.000 	     0.000513
   37520.000 	     0.000586
   37550.000 	     0.000705
   37580.000 	     0.000677
   37600.000 	     0.000479
   37630.000 	     0.000244
   37660.000 	     0.000263
   37690.000 	     0.000397
   37710.000 	     0.000366
   37740.000 	     0.000115
   37770.000 	     0.000193
   37790.000 	     0.000211
   37820.000 	     0.000186
   37850.000 	     0.000224
   37880.000 	     0.000305
   37910.000 	     0.000331
   37930.000 	     0.000281
   37960.000 	     0.000186
   37990.000 	     0.000119
   38020.000 	     0.000152
   38040.000 	     0.000255
   38070.000 	     0.000325
   38100.000 	     0.000266
   38130.000 	     0.000115
   38160.000 	     0.000008
   38180.000 	     0.000242
   38210.000 	     0.000426
   38240.000 	     0.000182
   38270.000 	     0.000336
   38300.000 	     0.000411
   38330.000 	     0.000367
   38350.000 	     0.000113
   38380.000 	     0.000146
   38410.000 	     0.000135
   38440.000 	     0.000137
   38470.000 	     0.000135
   38500.000 	     0.000100
   38530.000 	     0.000095
   38550.000 	     0.000152
   38580.000 	     0.000226
   38610.000 	     0.000309
   38640.000 	     0.000396
   38670.000 	     0.000408
   38700.000 	     0.000360
   38730.000 	     0.000375
   38760.000 	     0.000482
   38780.000 	     0.000577
   38810.000 	     0.000606
   38840.000 	     0.000604
   38870.000 	     0.000664
   38900.000 	     0.000852
   38930.000 	     0.001097
   38960.000 	     0.001348
   38990.000 	     0.001604
   39020.000 	     0.001792
   39050.000 	     0.001980
   39080.000 	     0.002346
   39110.000 	     0.002854
   39140.000 	     0.003408
   39170.000 	     0.004001
   39190.000 	     0.004621
   39220.000 	     0.005312
   39250.000 	     0.006179
   39280.000 	     0.007235
   39310.000 	     0.008403
   39340.000 	     0.009646
   39370.000 	     0.011090
   39400.000 	     0.012770
   39430.000 	     0.014540
   39460.000 	     0.016570
   39490.000 	     0.019020
   39520.000 	     0.021790
   39550.000 	     0.024960
   39580.000 	     0.028560
   39610.000 	     0.032810
   39640.000 	     0.037860
   39670.000 	     0.043670
   39700.000 	     0.050610
   39740.000 	     0.059210
   39770.000 	     0.069660
   39800.000 	     0.082010
   39830.000 	     0.096600
   39860.000 	     0.113700
   39890.000 	     0.133700
   39920.000 	     0.156600
   39950.000 	     0.181700
   39980.000 	     0.209100
   40010.000 	     0.237900
   40040.000 	     0.266400
   40070.000 	     0.294200
   40100.000 	     0.319900
   40140.000 	     0.342100
   40170.000 	     0.360400
   40200.000 	     0.373700
   40230.000 	     0.383800
   40260.000 	     0.390900
   40290.000 	     0.394300
   40320.000 	     0.395100
   40350.000 	     0.394700
   40390.000 	     0.394500
   40420.000 	     0.392000
   40450.000 	     0.388300
   40480.000 	     0.384600
   40510.000 	     0.380200
   40540.000 	     0.376300
   40570.000 	     0.372600
   40610.000 	     0.368100
   40640.000 	     0.363500
   40670.000 	     0.358800
   40700.000 	     0.354500
   40730.000 	     0.350800
   40770.000 	     0.346900
   40800.000 	     0.342700
   40830.000 	     0.339200
   40860.000 	     0.336600
   40890.000 	     0.334100
   40930.000 	     0.332200
   40960.000 	     0.330700
   40990.000 	     0.329700
   41020.000 	     0.330300
   41060.000 	     0.330700
   41090.000 	     0.331100
   41120.000 	     0.332000
   41150.000 	     0.333600
   41190.000 	     0.337700
   41220.000 	     0.341800
   41250.000 	     0.344500
   41290.000 	     0.349100
   41320.000 	     0.354100
   41350.000 	     0.359500
   41380.000 	     0.365500
   41420.000 	     0.371800
   41450.000 	     0.378700
   41480.000 	     0.386500
   41520.000 	     0.394600
   41550.000 	     0.403000
   41580.000 	     0.410500
   41620.000 	     0.416700
   41650.000 	     0.423200
   41680.000 	     0.430400
   41720.000 	     0.437000
   41750.000 	     0.442900
   41780.000 	     0.448200
   41820.000 	     0.453600
   41850.000 	     0.458600
   41890.000 	     0.463600
   41920.000 	     0.469000
   41950.000 	     0.472000
   41990.000 	     0.474300
   42020.000 	     0.477900
   42060.000 	     0.480700
   42090.000 	     0.482600
   42120.000 	     0.484400
   42160.000 	     0.485500
   42190.000 	     0.487100
   42230.000 	     0.487800
   42260.000 	     0.487300
   42300.000 	     0.487100
   42330.000 	     0.486500
   42360.000 	     0.485800
   42400.000 	     0.486200
   42430.000 	     0.484800
   42470.000 	     0.481600
   42500.000 	     0.478700
   42540.000 	     0.476500
   42570.000 	     0.474400
   42610.000 	     0.471800
   42640.000 	     0.469200
   42680.000 	     0.467800
   42710.000 	     0.465500
   42750.000 	     0.462700
   42780.000 	     0.462400
   42820.000 	     0.462000
   42860.000 	     0.460800
   42890.000 	     0.460500
   42930.000 	     0.460900
   42960.000 	     0.463500
   43000.000 	     0.465700
   43030.000 	     0.468000
   43070.000 	     0.470700
   43100.000 	     0.472600
   43140.000 	     0.475300
   43180.000 	     0.478400
   43210.000 	     0.481000
   43250.000 	     0.483800
   43280.000 	     0.486400
   43320.000 	     0.489100
   43360.000 	     0.492000
   43390.000 	     0.494000
   43430.000 	     0.495900
   43470.000 	     0.497600
   43500.000 	     0.499000
   43540.000 	     0.500200
   43580.000 	     0.500500
   43610.000 	     0.501000
   43650.000 	     0.503500
   43690.000 	     0.506100
   43720.000 	     0.506700
   43760.000 	     0.507500
   43800.000 	     0.509400
   43830.000 	     0.510800
   43870.000 	     0.511800
   43910.000 	     0.514000
   43940.000 	     0.516600
   43980.000 	     0.518700
   44020.000 	     0.520500
   44060.000 	     0.522100
   44090.000 	     0.524100
   44130.000 	     0.526800
   44170.000 	     0.528500
   44210.000 	     0.528800
   44240.000 	     0.529900
   44280.000 	     0.531300
   44320.000 	     0.532200
   44360.000 	     0.533400
   44400.000 	     0.534200
   44430.000 	     0.533500
   44470.000 	     0.534100
   44510.000 	     0.535300
   44550.000 	     0.534000
   44590.000 	     0.532600
   44630.000 	     0.533100
   44660.000 	     0.533800
   44700.000 	     0.532800
   44740.000 	     0.531200
   44780.000 	     0.530900
   44820.000 	     0.530100
   44860.000 	     0.528400
   44900.000 	     0.527600
   44930.000 	     0.526600
   44970.000 	     0.523700
   45010.000 	     0.521200
   45050.000 	     0.519600
   45090.000 	     0.516900
   45130.000 	     0.514300
   45170.000 	     0.513000
   45210.000 	     0.510400
   45250.000 	     0.507500
   45290.000 	     0.505800
   45330.000 	     0.503400
   45370.000 	     0.501400
   45410.000 	     0.501000
   45450.000 	     0.500000
   45490.000 	     0.497700
   45530.000 	     0.496100
   45570.000 	     0.495000
   45610.000 	     0.494100
   45650.000 	     0.494200
   45690.000 	     0.493700
   45730.000 	     0.492200
   45770.000 	     0.491100
   45810.000 	     0.490500
   45850.000 	     0.489000
   45890.000 	     0.486800
   45930.000 	     0.485600
   45970.000 	     0.484700
   46010.000 	     0.483200
   46050.000 	     0.480900
   46090.000 	     0.478300
   46130.000 	     0.475900
   46180.000 	     0.473000
   46220.000 	     0.469200
   46260.000 	     0.466300
   46300.000 	     0.462700
   46340.000 	     0.459300
   46380.000 	     0.459400
   46420.000 	     0.459600
   46460.000 	     0.459700
   46510.000 	     0.460800
   46550.000 	     0.460800
   46590.000 	     0.461600
   46630.000 	     0.463800
   46670.000 	     0.465800
   46720.000 	     0.467400
   46760.000 	     0.468900
   46800.000 	     0.471400
   46840.000 	     0.473300
   46880.000 	     0.474800
   46930.000 	     0.477000
   46970.000 	     0.478900
   47010.000 	     0.481000
   47060.000 	     0.483300
   47100.000 	     0.484400
   47140.000 	     0.484800
   47180.000 	     0.484400
   47230.000 	     0.483700
   47270.000 	     0.483800
   47310.000 	     0.483200
   47360.000 	     0.480800
   47400.000 	     0.478400
   47440.000 	     0.477400
   47490.000 	     0.475900
   47530.000 	     0.473100
   47570.000 	     0.470600
   47620.000 	     0.467900
   47660.000 	     0.465000
   47700.000 	     0.463100
   47750.000 	     0.460800
   47790.000 	     0.457000
   47840.000 	     0.453300
   47880.000 	     0.450500
   47920.000 	     0.448700
   47970.000 	     0.447100
   48010.000 	     0.445100
   48060.000 	     0.443200
   48100.000 	     0.441000
   48150.000 	     0.439300
   48190.000 	     0.438800
   48240.000 	     0.438000
   48280.000 	     0.436100
   48330.000 	     0.435400
   48370.000 	     0.436300
   48420.000 	     0.436100
   48460.000 	     0.435500
   48510.000 	     0.436000
   48550.000 	     0.435600
   48600.000 	     0.434800
   48640.000 	     0.435100
   48690.000 	     0.434800
   48740.000 	     0.434600
   48780.000 	     0.434200
   48830.000 	     0.433700
   48870.000 	     0.434500
   48920.000 	     0.434400
   48970.000 	     0.434200
   49010.000 	     0.434700
   49060.000 	     0.435500
   49100.000 	     0.435200
   49150.000 	     0.433700
   49200.000 	     0.433000
   49240.000 	     0.431700
   49290.000 	     0.429100
   49340.000 	     0.424100
   49390.000 	     0.417600
   49430.000 	     0.411200
   49480.000 	     0.403400
   49530.000 	     0.394200
   49570.000 	     0.385400
   49620.000 	     0.376900
   49670.000 	     0.369700
   49720.000 	     0.364700
   49760.000 	     0.361600
   49810.000 	     0.361500
   49860.000 	     0.364400
   49910.000 	     0.369600
   49960.000 	     0.374000
   50000.000 	     0.372700
   50050.000 	     0.359700
   50100.000 	     0.329000
   50150.000 	     0.280500
   50200.000 	     0.221400
   50250.000 	     0.162000
   50300.000 	     0.111300
   50340.000 	     0.073090
   50390.000 	     0.047130
   50440.000 	     0.030280
   50490.000 	     0.019540
   50540.000 	     0.012790
   50590.000 	     0.008499
   50640.000 	     0.005699
   50690.000 	     0.003878
   50740.000 	     0.002664
   50790.000 	     0.001822
   50840.000 	     0.001258
   50890.000 	     0.000899
   50940.000 	     0.000654
   50990.000 	     0.000442
   51040.000 	     0.000276
   51090.000 	     0.000447
   51140.000 	     0.000367
   51190.000 	     0.000318
   51240.000 	     0.000290
   51290.000 	     0.000235
   51340.000 	     0.000166
   51390.000 	     0.000117
   51440.000 	     0.000182
   51490.000 	     0.000101
   51550.000 	     0.000068
   51600.000 	     0.000061
   51650.000 	     0.000072
   51700.000 	     0.000094
   51750.000 	     0.000104
   51800.000 	     0.000097
   51850.000 	     0.000086
   51910.000 	     0.000071
   51960.000 	     0.000075
   52010.000 	     0.000085
   52060.000 	     0.000086
   52120.000 	     0.000096
   52170.000 	     0.000102
   52220.000 	     0.000102
   52270.000 	     0.000112
   52330.000 	     0.000124
   52380.000 	     0.000116
   52430.000 	     0.000093
   52480.000 	     0.000062
   52540.000 	     0.000035
   52590.000 	     0.000025
   52640.000 	     0.000009
   52700.000 	     0.000000
